timestamp,ax,ay,az,gx,gy,gz,pressing_id
520626,570,-3179,15584,948,-378,-333,1
520639,-968,-3324,15494,1200,818,-613,1
520651,-582,-3506,15623,1468,445,-433,1
520719,137,-3993,14167,-1745,589,-949,1
520731,264,-4060,14411,-548,257,-829,1
520744,233,-3727,15494,482,-430,-705,1
520757,1,-3282,17409,507,-1497,-454,1
520770,530,-3337,17072,-176,-1471,-391,1
520782,668,-3528,15930,-745,-928,-159,1
520795,205,-4010,14558,-116,405,316,1
520808,-15,-3933,14877,637,813,388,1
520821,24,-3657,15566,1223,791,386,1
520833,-448,-3306,16149,1273,-168,438,1
520846,-83,-3287,16390,1026,-684,265,1
520859,283,-3298,16416,627,-680,219,1
520872,70,-3537,15678,117,179,559,1
520885,-310,-3516,15676,218,244,648,1
520897,-508,-3224,16431,433,-286,538,1
520910,-509,-3063,16544,260,-411,418,1
520923,-540,-3093,16304,67,-335,289,1
520936,-409,-3140,16010,136,-18,51,1
520948,-65,-3270,15956,285,114,-10,1
520961,0,-3341,16026,475,270,60,1
520974,-485,-3222,16164,670,591,243,1
520986,-971,-3140,16317,669,351,131,1
520999,-948,-3111,16559,589,-115,-142,1
521012,-289,-3152,16303,147,-284,-598,1
521025,350,-3427,16062,44,-196,-609,1
521037,583,-3566,16016,75,-171,-390,1
521050,-108,-3479,15918,209,-88,124,1
521063,-598,-3417,16045,333,-162,85,1
521075,-693,-3333,16336,384,-305,-146,1
521088,321,-3409,16220,198,-32,-527,1
521101,554,-3456,16012,143,259,-394,1
521114,868,-3588,15759,201,101,209,1
521126,247,-3493,15952,308,-220,554,1
521139,-131,-3443,16144,336,-524,670,1
521152,-713,-3241,16506,210,-304,361,1
521165,-666,-3128,16403,92,-37,89,1
521178,-448,-3186,16042,-12,149,-120,1
521190,161,-3338,15727,115,-85,-190,1
521203,500,-3440,15799,223,-323,27,1
521215,368,-3319,16106,362,-460,393,1
521228,-754,-2998,16332,296,-210,666,1
521241,-1055,-3046,16367,229,-52,383,1
521254,-620,-3088,16352,134,-3,19,1
521267,290,-3225,15520,89,702,-145,1
521279,331,-3347,15598,404,760,44,1
521292,191,-3198,15889,618,517,240,1
521304,-549,-2976,16331,546,-184,398,1
521318,-593,-2986,16448,326,-492,230,1
521330,82,-3081,15986,84,-411,-76,1
521343,520,-3266,15670,-63,-133,-33,1
521356,404,-3139,15543,148,225,178,1
521368,55,-3131,15876,681,375,498,1
521381,87,-3019,16335,791,-99,606,1
521394,79,-2842,16512,648,-694,728,1
521407,-396,-2644,16455,109,-859,692,1
521419,-622,-2672,16073,-63,-448,466,1
521432,-452,-2954,15797,-5,-26,182,1
521445,869,-3049,16142,400,-147,102,1
521458,1135,-2799,16444,418,-586,519,1
521470,727,-2753,16327,222,-811,977,1
521483,-395,-2840,15984,248,-388,1283,1
521496,-627,-2813,16014,371,-36,1110,1
521509,-499,-2884,16169,439,95,883,1
521521,-322,-2936,15988,298,-216,618,1
521534,-27,-3096,15965,267,-653,629,1
521547,378,-3042,16016,268,-838,953,1
521559,49,-3115,15873,310,-444,1136,1
521572,-667,-2984,15920,436,-191,1176,1
521585,-1258,-3014,16511,605,-418,520,1
521598,-762,-3018,16645,504,-479,180,1
521611,-90,-3137,16454,310,-379,76,1
521623,179,-3285,16206,192,-185,595,1
521636,-307,-3271,16020,116,-192,829,1
521648,-683,-3197,15921,125,-362,846,1
521662,-447,-3347,15768,110,-929,449,1
521674,217,-3390,16132,157,-949,379,1
521687,578,-3231,16320,20,-430,511,1
521700,830,-3546,15506,-48,1185,1045,1
521712,1578,-3611,15212,314,1527,1272,1
521725,2333,-3476,15314,841,1337,1640,1
521738,3267,-3016,16715,1491,182,2479,1
521751,4229,-2739,18072,1468,-127,2640,1
521763,7378,-2879,19230,1063,379,3076,1
521776,8780,-2847,19374,312,952,3782,1
521789,9418,-2706,18967,-245,1530,4766,1
521802,9783,-2317,18736,-1070,1336,6659,1
521815,9920,-2062,18819,-1373,650,7294,1
521827,10730,-1685,19411,-1602,-176,7702,1
521840,13980,-1056,20750,-2535,-1264,9188,1
521853,14615,-343,20576,-3381,-917,10386,1
521866,14617,470,19766,-4228,-639,11581,1
521878,13870,1859,18844,-4927,-1415,13621,1
521891,13683,2589,18916,-4992,-2421,14434,1
521904,13890,3226,18699,-5036,-3628,15248,1
521917,12784,4079,19317,-4374,-5263,17294,1
521930,11306,4505,20259,-3833,-5218,18038,1
521942,9583,5360,22829,-3236,-5894,18338,1
521955,10074,5727,23810,-3649,-7018,18347,1
521968,10671,6107,23717,-4506,-8139,18667,1
521981,10082,7464,23894,-5765,-9276,20085,1
521993,9048,8401,23993,-6311,-9611,20860,1
522038,5450,12804,22195,-6213,-12634,25342,1
522050,4441,14174,23030,-5696,-12706,26037,1
522063,3628,15330,23784,-5730,-12871,26554,1
522076,3676,16411,23625,-6097,-13501,27738,1
522089,3523,16802,23082,-5595,-13627,28633,1
522101,3248,17671,23377,-4575,-13873,29668,1
522114,-30,16491,25628,-3731,-15136,30860,1
522127,1473,18589,25280,-4538,-15448,30265,1
522140,3018,19648,25148,-5168,-15573,30408,1
522153,2589,17904,23433,-6349,-14551,32520,1
522165,1715,20099,23714,-5087,-14526,32764,1
522178,905,21274,25564,-5991,-15865,32764,1
522191,521,21255,25368,-5802,-16983,32764,1
522204,43,21379,25223,-5434,-17625,32764,1
522217,1313,21890,22997,-4284,-16598,32764,1
522230,1967,23586,22847,-2885,-16347,32764,1
522242,1942,24372,23800,-1438,-16724,32764,1
522255,-146,25028,27720,-124,-18698,32764,1
522268,-1247,25187,28517,-360,-19671,32764,1
522281,-2835,24222,28484,-469,-20497,32764,1
522294,-4795,21403,27411,284,-19736,32764,1
522306,-5078,20170,27069,771,-18697,32764,1
522319,-4738,20062,26784,532,-18185,32764,1
522332,-4499,19760,26313,98,-19053,32764,1
522345,-4245,20493,27192,241,-20073,32764,1
522357,-5593,23145,29887,898,-19448,32764,1
522370,-8379,24567,31944,1211,-17927,32764,1
522383,-11065,24390,32764,948,-16809,32764,1
522396,-11289,23868,32764,-2123,-16939,32764,1
522409,-8505,23046,32291,-3676,-17762,32764,1
522421,-6028,22452,30606,-4421,-18242,32764,1
522434,-7427,22380,28977,-3952,-17995,32764,1
522447,-8965,21877,29009,-3579,-18202,32764,1
522460,-9328,20023,29705,-3485,-19223,32764,1
522473,-8796,18982,29366,-4531,-18899,32711,1
522486,-7939,17627,28372,-5336,-18231,32197,1
522498,-5527,15082,25807,-6777,-17359,31394,1
522511,-4000,15386,24538,-7360,-17751,31800,1
522525,-2638,16576,22931,-7777,-18854,32581,1
522538,-1600,21754,20301,-6087,-22343,32764,1
522551,-3658,24164,23356,-2406,-23560,32764,1
522564,-10469,26098,32764,4228,-20628,32764,1
522576,-14097,26321,32764,3931,-17942,32764,1
522589,-14882,25483,32764,394,-17008,32764,1
522602,-9753,21008,28628,-6896,-21555,31656,1
522615,-5703,19250,25083,-6800,-23977,31421,1
522628,-2642,18976,23704,-4860,-24592,32339,1
522640,-3979,21882,27513,898,-22796,32764,1
522654,-5518,23010,30475,2840,-21971,32764,1
522666,-6922,23697,32460,3868,-20925,32764,1
522679,-8069,24731,32764,3394,-18512,32764,1
522692,-8029,24478,32764,1761,-18646,32764,1
522704,-5726,23562,32671,28,-20003,32764,1
522717,-3844,24278,32367,-1246,-23066,32764,1
522730,-2540,24917,32358,-808,-23029,32764,1
522743,-5457,26150,32764,1324,-19577,32764,1
522755,-7752,26056,32764,2043,-17774,32764,1
522769,-9478,25486,32764,1835,-16439,32764,1
522781,-10601,23281,32764,-1481,-15392,32764,1
522794,-9930,22029,31307,-3651,-15759,32764,1
522807,-8489,21430,28375,-5551,-16687,32764,1
522820,-6154,20937,23117,-7043,-18662,32764,1
522832,-6271,21566,22365,-6024,-18727,32764,1
522845,-7407,22541,23033,-4275,-18075,32764,1
522858,-10877,23700,26092,-1331,-15340,32764,1
522871,-12742,23951,27518,-837,-14265,32764,1
522884,-12988,22198,28944,-2083,-13821,32764,1
522896,-11627,21486,28954,-3527,-14356,32764,1
522909,-10505,21221,27594,-5316,-14905,32764,1
522922,-9078,20144,23818,-7014,-15724,32764,1
522935,-8689,20559,23861,-6455,-15478,32764,1
522948,-9097,21412,24236,-5779,-14676,32764,1
522960,-11237,20510,25164,-4894,-13389,32764,1
522973,-10311,19441,26100,-4925,-12953,32736,1
522986,-8886,19071,26454,-5832,-12433,32506,1
522999,-6289,18718,22815,-9451,-12675,32607,1
523012,-4965,19685,20081,-10515,-14130,32759,1
523025,-4336,23292,18056,-10279,-16103,32764,1
523037,-6454,24315,21244,-4854,-18691,32764,1
523050,-9242,25482,26233,-1423,-17680,32764,1
523063,-15339,25372,32097,-378,-14301,32764,1
523076,-14625,24107,30921,-2762,-14728,32755,1
523089,-11470,21948,27421,-5313,-16662,32197,1
523101,-4626,18454,23007,-5844,-20223,31786,1
523114,-3457,18323,22806,-4389,-20714,32635,1
523127,-3538,19151,24392,-2508,-20961,32764,1
523140,-4083,21462,28771,-228,-20078,32764,1
523153,-4009,22116,30042,136,-18898,32764,1
523166,-3686,23025,31598,364,-17966,32764,1
523178,-4917,25159,32764,-377,-17779,32764,1
523221,-8165,25575,32421,-5836,-18720,32764,1
523234,-7225,25975,29591,-6130,-17493,32764,1
523247,-6847,26698,29703,-5254,-17116,32764,1
523260,-6658,28369,30711,-4328,-16812,32764,1
523272,-8703,31128,32749,-3635,-16216,32764,1
523285,-11137,31105,32764,-3877,-15830,32764,1
523298,-14567,27744,32545,-5727,-14635,32764,1
523311,-14076,25459,30727,-7134,-14208,32764,1
523324,-12180,23448,27643,-8770,-14023,32764,1
523336,-6906,20828,20742,-10759,-14961,32764,1
523349,-4735,20838,18127,-10367,-15763,32764,1
523362,-4361,21194,17303,-8762,-16405,32764,1
523375,-5373,24462,22751,-4262,-15714,32764,1
523387,-7356,25433,25869,-3150,-14036,32764,1
523401,-10241,25594,28444,-3004,-12433,32764,1
523413,-10944,23698,30358,-6070,-11448,32764,1
523426,-8396,22781,27954,-8870,-12144,32764,1
523439,-4355,21720,21367,-12377,-14693,32764,1
523452,-3491,22135,19659,-12021,-15345,32764,1
523465,-3485,22787,19931,-10529,-15023,32764,1
523478,-7158,23720,24357,-7912,-11806,32764,1
523490,-9032,23906,26637,-8109,-10626,32764,1
523503,-8815,23567,27281,-9622,-10048,32764,1
523516,-6316,23549,22177,-13971,-11259,32764,1
523529,-3731,24181,18706,-14752,-13822,32764,1
523542,-680,25258,16764,-13722,-17046,32764,1
523554,1880,30210,23107,-6184,-21216,32764,1
523567,658,32323,29419,-2184,-20477,32764,1
523580,-8216,32742,32764,192,-18101,32764,1
523593,-10693,32685,32764,-2718,-15557,32764,1
523606,-9772,30836,32764,-7231,-17219,32764,1
523618,-2685,26000,31062,-11802,-23136,32764,1
523631,509,25908,28324,-11029,-24206,32764,1
523644,1576,28282,27977,-8827,-23889,32764,1
523657,-4328,32115,32173,-4767,-21656,32764,1
523669,-7535,32742,32764,-4041,-20746,32764,1
523683,-10380,32742,32764,-3955,-20244,32764,1
523695,-12887,32742,32764,-5291,-19807,32764,1
523708,-13039,32742,32764,-6471,-19591,32764,1
523721,-13480,32742,32764,-7861,-19536,32764,1
523734,-13515,32742,32764,-9311,-20822,32764,1
523746,-12709,32739,32283,-9303,-21230,32764,1
523759,-12734,32417,30161,-9235,-20839,32764,1
523772,-13096,32259,29345,-8927,-20576,32764,1
523785,-12700,32605,29253,-8381,-20574,32764,1
523798,-11158,32742,29559,-7263,-20317,32764,1
523810,-11149,32703,29755,-6604,-19392,32764,1
523823,-11693,32082,30117,-5979,-17909,32764,1
523836,-14640,29602,30547,-5899,-14989,32764,1
523849,-15409,27848,29575,-6798,-14484,32764,1
523862,-13994,25370,28160,-7968,-14788,32764,1
523874,-8925,23308,24218,-10338,-15345,32764,1
523888,-6660,22692,21567,-11078,-15564,32764,1
523900,-5234,22974,18887,-10796,-15565,32764,1
523913,-6301,23785,20356,-7245,-14744,32764,1
523926,-8499,24774,22904,-5470,-13508,32764,1
523938,-13958,23955,26292,-5116,-11362,32764,1
523951,-14752,21827,26542,-6472,-11091,32764,1
523964,-12846,20025,25613,-8414,-11248,32761,1
523977,-7535,18519,19828,-12206,-12352,32510,1
523989,-6403,18614,17340,-12543,-13310,32742,1
524003,-6325,18933,16595,-11395,-14029,32764,1
524015,-8816,21062,22665,-7286,-12613,32764,1
524028,-11061,21917,25594,-6955,-11042,32764,1
524041,-11542,21932,26381,-8151,-10160,32764,1
524054,-7915,22854,21317,-11765,-11704,32186,1
524067,-6038,23016,18732,-11554,-14505,32100,1
524079,-4064,24909,23436,-5074,-19944,32763,1
524092,-4680,26068,29660,-1344,-20395,32764,1
524105,-7095,26723,32764,486,-18750,32764,1
524118,-12825,24728,32764,-2463,-14698,31946,1
524130,-11568,22551,32764,-6349,-14812,29718,1
524143,-9267,20748,31156,-9552,-16655,28246,1
524156,-4455,18668,23654,-11563,-21470,28777,1
524169,-3305,18194,22145,-10301,-22185,30380,1
524182,-2947,18602,22456,-8103,-21305,32119,1
524194,-2419,21297,27368,-3985,-18105,32764,1
524208,-3107,23567,30026,-3370,-17187,32764,1
524220,-4846,25261,31499,-3805,-16807,32764,1
524233,-8113,26452,31255,-5504,-16805,32764,1
524246,-9048,26830,31212,-6151,-16798,32764,1
524259,-9704,26917,29875,-7929,-16652,32764,1
524271,-9830,26892,28308,-8766,-16625,32764,1
524284,-9737,26330,27306,-9101,-16798,32764,1
524297,-8768,26363,26990,-8956,-16517,32764,1
524309,-8882,26833,26939,-9106,-15884,32764,1
524323,-8802,27636,26211,-9556,-15235,32764,1
524335,-7637,29433,23761,-9804,-14699,32764,1
524378,-9084,31767,30694,-6098,-14188,32764,1
524391,-13504,28810,30610,-8529,-13662,32764,1
524404,-13168,26535,27463,-10507,-13497,32764,1
524417,-10670,24656,23464,-11965,-13708,32764,1
524429,-5247,22595,17349,-11988,-15905,32764,1
524442,-2633,21847,16027,-10347,-17329,32764,1
524455,-456,21923,17265,-7670,-18008,32764,1
524468,-2528,24409,23148,-3205,-16487,32764,1
524481,-6479,25197,25450,-2405,-15088,32764,1
524494,-10506,24524,28410,-3694,-12990,32764,1
524506,-10051,24230,27822,-5570,-13173,32764,1
524521,-8412,23351,26387,-7313,-14485,32764,1
524533,-4507,23221,25517,-8217,-17525,32764,1
524546,-4788,24033,25677,-7875,-17243,32764,1
524559,-6561,24704,27093,-7248,-15766,32764,1
524572,-11631,25034,28376,-6510,-11771,32764,1
524584,-13321,24038,28681,-7447,-10570,32764,1
524597,-12156,22276,24214,-11196,-10907,32764,1
524610,-9733,21921,21885,-12301,-12491,32764,1
524623,-6769,22071,20310,-12481,-13984,32764,1
524636,-2713,24265,21363,-9434,-14881,32764,1
524648,-2479,26933,24634,-7160,-14273,32764,1
524661,-3489,29629,28727,-5357,-13205,32764,1
524674,-9116,32502,32764,-5075,-11160,32764,1
524687,-10417,32690,32764,-7330,-11002,32764,1
524700,-9705,31685,32214,-10311,-11799,32764,1
524712,-5551,28259,25572,-12817,-15732,32764,1
524725,-3268,26745,23995,-12013,-17482,32764,1
524738,-1313,26737,24784,-10547,-18624,32764,1
524751,-1330,27496,25903,-8094,-18300,32764,1
524764,-1951,28236,26929,-7452,-17900,32764,1
524777,-3221,30028,29908,-6913,-17789,32764,1
524789,-3437,30529,30789,-7207,-17647,32764,1
524802,-3526,30974,31061,-7702,-17490,32764,1
524815,-5284,32718,31012,-8804,-17796,32764,1
524828,-6779,32742,30823,-9279,-18234,32764,1
524841,-7723,32742,30742,-9628,-18562,32764,1
524853,-8706,32742,29532,-9932,-17863,32764,1
524866,-9074,32742,28826,-9735,-17115,32764,1
524879,-9496,32742,28509,-9425,-16601,32764,1
524892,-10258,32742,28219,-9248,-16681,32764,1
524904,-10398,32742,27363,-9423,-16911,32764,1
524917,-10141,32685,24267,-8941,-16999,32764,1
524930,-10359,31794,23447,-7633,-17053,32764,1
524943,-11133,30314,24699,-5721,-17190,32764,1
524956,-13084,27737,29062,-4371,-17274,32764,1
524968,-13765,25401,28828,-5782,-17425,32764,1
524982,-13287,23374,26959,-7637,-17483,32764,1
524994,-9889,20712,19904,-9791,-17048,32728,1
525007,-7903,19591,17756,-9137,-16897,32649,1
525020,-6529,19134,16646,-7675,-16681,32747,1
525033,-8081,19667,19032,-3240,-16386,32764,1
525046,-10088,20397,21637,-1526,-16153,32764,1
525058,-15162,20542,26043,-749,-14932,32764,1
525071,-16760,19762,25790,-2035,-13206,32764,1
525084,-17207,18546,23891,-3559,-11943,32748,1
525097,-16228,15813,18522,-5422,-10794,30872,1
525109,-15475,14660,17176,-5339,-11072,29976,1
525122,-15621,13730,16447,-5100,-11070,29467,1
525135,-16388,11439,14840,-4422,-10415,28170,1
525148,-16372,10561,14004,-3898,-9960,27163,1
525161,-16312,10141,13283,-3168,-9603,25885,1
525173,-13956,7966,12980,-1291,-9772,23035,1
525187,-11755,7012,13600,-55,-9682,22023,1
525199,-10315,6223,14979,1256,-9235,21648,1
525212,-9761,5152,17854,2393,-8009,21610,1
525225,-9973,4721,18506,2027,-7848,21458,1
525237,-9565,3837,18628,581,-9316,20641,1
525250,-8910,3251,18582,625,-9567,20208,1
525263,-8724,2832,19144,1275,-9087,20076,1
525276,-9928,2892,20683,2110,-7948,20231,1
525288,-10572,2598,21608,1887,-7974,20351,1
525301,-11989,2608,22260,1401,-7630,20550,1
525314,-15775,2448,21299,334,-5172,19544,1
525327,-16635,1639,20330,277,-4067,18213,1
525340,-17115,737,19982,469,-3833,16910,1
525352,-17360,-597,19669,30,-4587,14265,1
525365,-17468,-1328,18645,-773,-4919,12886,1
525378,-17484,-3536,14303,-1819,-4727,11229,1
525391,-15532,-4081,12527,-2401,-4376,7922,1
525403,-13825,-4476,11184,-1997,-4156,6607,1
525417,-10464,-4714,10686,-172,-3157,5103,1
525429,-9162,-4413,11573,836,-2961,5002,1
525442,-7885,-4098,12690,1539,-2799,5056,1
525455,-6652,-2772,14397,1921,-2178,5588,1
525468,-6180,-1752,14330,1663,-1962,5796,1
525480,-6882,-1246,13677,1548,-1439,5975,1
525493,-8957,-2365,16601,3574,-301,4887,1
525506,-8634,-2537,18268,3831,328,3621,1
525519,-7802,-2503,18516,2832,648,2387,1
525562,-2636,-5735,10294,1342,-196,-816,1
525574,-1374,-5651,11143,2904,-11,-790,1
525587,338,-4818,14678,5062,486,343,1
525600,24,-4186,16532,5258,718,1400,1
525613,-1879,-3475,18006,4862,732,2359,1
525625,-5552,-3110,18480,2936,-279,1901,1
525638,-5240,-3408,18053,2083,-722,644,1
525651,-3694,-3560,17217,1376,-743,-478,1
525664,-865,-4209,15790,1038,-98,-791,1
525677,-742,-4248,15772,1214,-37,-195,1
525689,-1832,-3751,16193,1429,-518,525,1
525702,-2060,-3576,16273,1400,-753,371,1
525714,-1911,-3399,16423,1421,-1029,87,1
525728,-898,-3381,16897,1579,-1106,-244,1
525740,-721,-3355,17188,1607,-622,-84,1
525753,-890,-3388,17347,1589,-142,133,1
525766,-1351,-3611,17417,1285,-360,240,1
525779,-1182,-3598,17200,955,-778,77,1
525791,-682,-3783,17019,666,-1023,-19,1
525804,-581,-3792,16496,490,-297,331,1
525817,-1049,-3513,16205,595,-78,503,1
525829,-642,-3639,16249,783,-366,513,1
525842,-174,-3182,17366,1079,-861,1180,1
525855,-838,-2866,17613,948,-705,1633,1
525868,-1704,-2684,17086,692,-501,1861,1
525881,-2568,-2680,16972,439,-265,1171,1
525893,-1811,-2887,17102,520,-18,606,1
525906,-985,-3053,17171,423,334,249,1
525919,-976,-3233,16841,110,-28,270,1
525932,-965,-3526,16298,-167,-478,281,1
525944,-1146,-3541,15842,-132,-611,353,1
525957,-1390,-3517,15659,-51,-234,383,1
525970,-1489,-3549,15393,-2,114,346,1
525983,-938,-3284,15654,315,80,352,1
525995,-1303,-2929,16177,418,-182,566,1
526008,-1749,-2706,16722,395,-679,647,1
526021,-1359,-2262,17056,-327,-1217,426,1
526033,-1161,-2469,16447,-574,-782,382,1
526047,-2031,-2521,16124,-377,-201,393,1
526059,-2363,-2292,16791,312,350,-10,1
526072,-2251,-2108,17364,227,177,-548,1
526085,-143,-2173,15797,-921,-669,-865,1
526098,171,-2421,14420,-1084,-1022,-357,1
