timestamp,ax,ay,az,gx,gy,gz,pressing_id
210773,-16685,2612,10774,-3192,-614,8559,1
210786,-16529,2659,10431,92,1033,4514,1
210798,-16531,2527,11500,1052,307,2921,1
210859,-15805,5181,9363,-5650,-5049,-8290,1
210871,-14698,5906,8173,-5624,-5033,-9642,1
210884,-13868,6731,7353,-4806,-4695,-10615,1
210897,-13231,9872,7572,-1797,-2918,-11513,1
210910,-14075,11644,8452,-296,-2593,-11591,1
210923,-15560,12814,8663,736,-2080,-11936,1
210936,-16917,13547,7654,3489,491,-14186,1
210948,-17603,14128,8329,5326,1785,-15704,1
210961,-18547,14918,9867,6648,1852,-17147,1
210974,-21014,19028,11543,5151,-588,-20790,1
210987,-22489,22128,10136,3493,-1158,-23302,1
211000,-28813,27756,4545,1540,-1394,-28414,1
211012,-32605,29978,2629,2800,-1187,-31812,1
211025,-32760,32489,1880,5733,-476,-32764,1
211038,-32759,32742,4863,14912,3706,-32764,1
211051,-30552,32742,8279,19125,4291,-32764,1
211063,-25039,32742,11608,21959,3846,-32764,1
211076,-9825,32742,18585,24800,7431,-32764,1
211089,-8050,32742,21702,25486,9917,-32764,1
211102,-7034,32742,23474,24934,10920,-32764,1
211115,-661,32742,25410,24361,12122,-32764,1
211127,5010,32742,27388,25220,13850,-32764,1
211140,19871,32742,32047,25964,14101,-32764,1
211153,32711,32742,32764,22307,17162,-32764,1
211166,30486,32742,32326,19602,18863,-32764,1
211179,13081,27953,29699,19725,15460,-32764,1
211191,9206,26826,32533,19997,11619,-32764,1
212998,-7808,1200,15293,459,1181,-200,2
213011,-7657,288,14853,83,1262,-433,2
213024,-7568,493,15515,-458,-659,-605,2
213036,-6741,512,15912,-1467,-1336,-785,2
213049,-5973,376,15839,-2250,-1758,-596,2
213062,-5310,-151,15317,-2948,-2132,161,2
213074,-5009,-954,14769,-2810,-2013,748,2
213088,-4850,-1232,14981,-2212,-1699,1386,2
213100,-4188,-1143,17523,-919,-821,2674,2
213113,-5190,-848,18203,-1332,-547,3551,2
213126,-6310,-827,17999,-2313,-587,4160,2
213139,-8336,-537,16779,-4387,-1043,4762,2
213151,-9212,205,16216,-5306,-1497,4911,2
213164,-10649,880,15249,-6325,-1913,5063,2
213177,-13365,2474,12304,-7701,-2380,4581,2
213189,-14514,3813,11058,-7749,-2692,4013,2
213203,-19052,8977,8624,-6950,-2947,2640,2
213215,-23405,12099,7627,-6338,-3015,1498,2
213228,-28496,16309,7665,-5704,-3549,-493,2
213241,-32759,20477,7548,-5185,-3662,-8304,2
213254,-32759,22194,6158,-4506,-2024,-14147,2
213266,-32760,23899,4135,-2446,-48,-21524,2
213279,-32760,28760,4947,5284,2267,-32681,2
213292,-31370,31922,6912,8988,3022,-32764,2
213304,-25988,32742,9733,11951,3503,-32764,2
213318,-20378,32742,14222,14214,3377,-32764,2
213330,-20453,32742,14278,14030,4123,-32764,2
213343,-21263,32742,13986,14255,5634,-32764,2
213356,-20546,32742,12529,16623,9293,-32764,2
213369,-18166,32742,11188,18817,10155,-32764,2
213381,-9506,32742,13211,22406,11304,-32764,2
213394,-6748,32742,16963,32148,16887,-32764,2
213407,-4332,32742,22238,32764,18793,-32764,2
213420,4433,32742,32764,32764,13599,-32764,2
213433,13202,32742,32764,32289,6902,-32764,2
213445,21626,32742,32764,26155,1997,-32764,2
213459,27916,32742,25051,12616,3736,-32764,2
214363,-12373,231,15113,-1370,-3634,11043,3
214376,-12432,938,14861,-2242,-2950,10672,3
214389,-14987,1896,14187,-3465,-2224,9910,3
214401,-15227,2313,14676,-3842,-2932,9038,3
214414,-15756,3054,14289,-4703,-3110,8150,3
214427,-16180,6110,13146,-5930,-3602,7110,3
214440,-17476,8130,11991,-6112,-3312,6823,3
214453,-19890,11099,11365,-5638,-3157,6340,3
214466,-29259,19163,11795,-4010,-3449,3015,3
214478,-32243,23406,11584,-3568,-3366,-634,3
214491,-32760,28813,11087,-3385,-2783,-4707,3
214504,-32759,32742,6714,-1986,1751,-12606,3
214517,-32759,32742,5374,543,3684,-18008,3
214529,-32759,32742,5376,3925,3867,-24271,3
214543,-29069,32742,5994,10748,4626,-32710,3
214555,-23702,32742,6252,14892,6301,-32764,3
214568,-11724,32742,13876,24690,9118,-32764,3
214581,-9506,32742,17966,28336,11017,-32764,3
214594,-8810,32742,20274,30812,12273,-32764,3
214607,-9759,32742,21856,32764,13264,-32764,3
214619,-1037,32742,25501,32764,10967,-32764,3
214632,8085,32742,30110,32764,8324,-32764,3
214645,17999,32742,32764,31867,4523,-32764,3
214658,23455,32742,32764,29078,1681,-32764,3
214670,31966,32742,32764,25092,-1251,-32764,3
214715,32711,-4837,27322,8306,-1088,-32764,3
214727,32711,-9730,25689,8610,2147,-32042,3
214740,32711,-12539,27529,10363,3089,-21064,3
214753,31954,-12302,29316,9441,2208,-16905,3
214766,25782,-9355,28011,4199,287,-12904,3
214778,24652,-9260,24565,1484,-193,-11281,3
214791,23606,-8750,20797,-153,-348,-9030,3
214804,14173,-7634,15867,-39,216,-4173,3
214817,8873,-6687,15403,964,-197,-3351,3
214830,5534,-5822,16107,1592,-1650,-3556,3
214842,4476,-5007,17400,1751,-3665,-4994,3
214855,5448,-4794,17448,1923,-3204,-5091,3
215560,-17919,7651,11945,-3159,-3811,-794,4
215572,-20873,10376,11705,-3055,-4699,-2347,4
215585,-24019,19885,10877,-2734,-7734,-5536,4
215598,-25415,24299,10090,-1874,-7388,-7280,4
215611,-29004,28017,9268,7,-4120,-9228,4
215624,-32759,32742,7887,5899,4808,-16893,4
215636,-32759,32742,6505,9117,6190,-24359,4
215649,-32759,32742,5031,12856,6186,-31555,4
215662,-32759,32742,7396,24078,9871,-32764,4
215675,-32759,32742,12081,29909,12283,-32764,4
215687,-32619,32742,17294,32608,12793,-32764,4
215701,-9167,32742,26455,32764,11776,-32764,4
215713,6827,32742,29632,32764,12683,-32764,4
215726,10494,32742,28271,32002,15737,-32764,4
215739,11402,32742,28798,31295,16251,-32764,4
215752,13992,32742,26843,31716,18033,-32764,4
215764,32704,32742,31477,32764,16921,-32764,4
215777,32711,32742,32764,32764,15157,-32764,4
215790,32711,32742,32764,32743,11328,-32764,4
215803,32711,32742,32764,22920,4004,-32764,4
215816,32710,31378,32625,16505,2324,-32764,4
215828,32703,26198,30468,15372,1582,-32764,4
215841,32711,18959,32508,18509,6989,-32764,4
215854,32711,16409,32764,18462,11539,-32764,4
215866,32711,13783,32764,17886,12737,-32007,4
216501,-7958,-417,14696,-1698,-1354,980,5
216514,-9306,1178,13278,-1867,247,1192,5
216526,-19429,6936,13504,204,-257,-587,5
216539,-28014,12698,15429,764,-1680,-3460,5
216552,-32760,17385,15637,-75,-2599,-8372,5
216565,-32760,23408,10209,-777,-1262,-29802,5
216578,-32759,28533,6733,615,13,-32764,5
216590,-32759,32742,5568,3726,2844,-32764,5
216603,-32759,32742,10503,12865,10567,-32764,5
216616,-31075,32742,13325,17680,15648,-32764,5
216629,-18615,32742,17038,22436,18931,-32764,5
216641,29035,32742,32764,20580,1098,-32764,5
216654,32711,32742,32764,4004,-11792,-32764,5
216668,32711,15173,4513,-16067,-4996,-32764,5
216681,32679,8350,-138,-8630,13906,-32764,5
216694,24757,9535,11449,4470,28636,-32764,5
216707,12115,16357,30162,9066,27548,-32764,5
216720,16675,11107,28152,3437,14965,-32764,5
216732,25927,-709,20805,953,-3367,-32764,5
216745,32711,-2711,7759,862,-9869,-28501,5
217389,-12617,3555,14490,-1940,-1689,3944,6
217402,-24287,9855,11654,-4536,-2857,1083,6
217415,-32209,15917,9365,-4944,-3106,-3218,6
217428,-32759,26110,6702,-4426,-2080,-10203,6
217441,-32759,32742,887,95,1191,-32006,6
217453,-32759,32742,1067,5263,1197,-32764,6
217466,-32759,32742,4608,10573,4241,-32764,6
217479,-31920,32742,6757,23599,19389,-32764,6
217492,-14205,32742,15173,31453,26338,-32764,6
217505,-638,32742,32764,32764,29908,-32764,6
217517,17519,32742,32764,32161,14533,-32764,6
217530,31428,32742,32764,23682,354,-32764,6
217543,32711,29767,18166,1376,-11775,-32764,6
217556,32711,20612,8582,958,-4836,-32764,6
217568,32711,14621,12068,4326,9761,-32764,6
217581,27600,12765,24275,11084,14487,-32764,6
217594,27326,11002,26066,9348,8128,-32764,6
217607,32672,8217,22891,5723,451,-32764,6
217620,32711,2018,12162,-893,4530,-25880,6
217632,32711,456,13954,422,8487,-18681,6
217645,32711,36,17467,3471,8814,-12876,6
217658,32711,1633,23970,6145,6382,-1021,6
218182,-26616,28071,11540,-1817,-6262,-11919,7
218194,-32011,32742,7374,-3930,-7632,-21748,7
218207,-32759,32742,4204,-3066,-5318,-27408,7
218220,-32759,32742,3003,-420,-4803,-32113,7
218233,-32759,32742,1036,5254,-3932,-32764,7
218246,-32759,32742,327,9272,-1378,-32764,7
218258,-30794,32742,4879,21518,6258,-32764,7
218271,-27136,32742,10487,28243,11436,-32764,7
218284,-22363,32742,15957,32360,15545,-32764,7
218297,1188,32742,31871,32764,19214,-32764,7
218310,9202,32742,32764,32763,17604,-32764,7
218323,16093,32742,32764,30811,13938,-32764,7
218335,32656,32742,30387,19123,6122,-32764,7
218378,12441,32742,26616,30883,24121,-32764,7
218391,32711,32742,32764,31535,8753,-32764,7
218404,32711,32530,32764,23609,461,-32764,7
218417,32711,25712,32764,14508,-5567,-32764,7
218429,32711,15803,24884,7913,-200,-32022,7
218443,30072,15572,27393,10594,4964,-28038,7
218455,25277,16728,30784,13002,7954,-25466,7
218468,22980,14599,32396,11032,9105,-24172,7
218481,26599,12752,32681,8904,7285,-22749,7
218494,32711,8577,32764,2420,1895,-13010,7
218506,32711,7560,32531,-1938,3300,-4414,7
219221,-14984,3642,12109,-4454,-1075,2875,8
219233,-15440,5553,10513,-4618,-1775,1774,8
219246,-17606,9128,10430,-4210,-3185,684,8
219259,-25270,20958,9621,-3537,-3337,-1786,8
219272,-32556,28006,7869,-3117,-2054,-4609,8
219284,-32759,32742,3339,-1798,-2496,-19609,8
219297,-32759,32742,2356,5035,-1643,-29510,8
219310,-32759,32742,267,9618,1175,-32753,8
219323,-32759,32742,2574,22677,6228,-32764,8
219336,-32759,32742,7371,27893,5882,-32764,8
219348,-31456,32742,13642,30482,5821,-32764,8
219361,-17222,32742,22720,30518,11525,-32764,8
219374,-10268,32742,24184,29739,14097,-32764,8
219387,-6856,32742,23696,28156,14993,-32764,8
219400,10113,32742,21235,25853,14504,-32764,8
219413,17923,32742,16734,27021,19490,-32764,8
219425,15657,32742,12993,30942,28199,-32764,8
219438,11305,32742,31804,32764,23049,-32764,8
219451,19928,32742,32764,32757,8733,-32764,8
219464,28021,32742,30049,13263,-4335,-32764,8
219477,22506,32742,21488,7836,-3608,-32764,8
219489,16066,32742,18260,10804,-269,-32764,8
219502,22603,32742,32533,22925,-636,-32764,8
219515,30353,32742,32764,21303,-1590,-32764,8
219528,32711,32604,32764,15197,-1335,-32764,8
219541,32711,25585,32764,1783,3028,-31861,8
219554,32711,23427,30184,-1674,6907,-24833,8
219566,32711,22592,27630,-756,9165,-17554,8
219579,32711,25199,32764,4627,6471,-8604,8
219592,32711,23853,32764,792,6833,-4643,8
219604,32711,20060,32764,-13275,15317,7646,8
219618,31774,20413,32754,-19096,20701,13771,8
220272,-13873,2562,17237,-1365,1373,3540,9
220284,-15057,2199,16729,-2591,1535,1420,9
220297,-15679,2664,16362,-3135,1660,537,9
220310,-15312,3414,16008,-3822,1723,-275,9
220322,-16164,3919,13084,-5311,1862,-2003,9
220336,-17195,4459,12220,-5392,1486,-3140,9
220348,-16738,2959,9349,-5161,520,-6866,9
220361,-15203,3052,8535,-4360,510,-8501,9
220374,-12091,2947,8650,-3197,847,-9832,9
220387,-8977,3220,10449,-1761,1800,-10111,9
220399,-9369,3048,10846,-1910,1595,-9568,9
220412,-11233,2976,10546,-2393,1055,-9215,9
220425,-10919,2795,9620,-2471,-43,-10374,9
220438,-11451,3445,9823,-2050,-61,-10469,9
220451,-13279,2931,9172,-2000,-455,-10286,9
220463,-17824,4089,9085,-803,-497,-11943,9
220476,-23973,3627,7729,-56,1282,-14561,9
220489,-32759,9847,5088,1356,3146,-19279,9
220502,-32759,13954,2393,4650,1887,-32577,9
220514,-32759,23112,1635,7483,1623,-32764,9
220528,-32759,32742,5557,15154,5444,-32764,9
220540,-32392,32742,11546,20023,12146,-32764,9
220553,-23026,32742,17757,23881,18290,-32764,9
220566,1763,32742,32764,24685,16834,-32764,9
220579,18138,32742,32764,14906,9323,-32764,9
220591,21386,32742,25665,1978,9045,-32764,9
220604,13996,27707,7858,3744,25439,-32764,9
220617,11324,27263,16469,13028,31720,-32764,9
220629,8646,28319,26177,18299,32524,-32764,9
220643,12664,27350,32632,12844,17139,-32764,9
221397,-17655,10267,11423,1560,-9511,594,10
221410,-18501,11982,11161,730,-10220,-1828,10
221423,-16675,22289,13357,958,-11834,-4676,10
221435,-17725,26763,12857,196,-11285,-5393,10
221448,-22345,32163,12971,-584,-10691,-6268,10
221461,-32756,32742,8331,-2139,-11107,-12192,10
221474,-32759,32742,4177,-705,-10558,-17924,10
221487,-32759,32742,1470,2810,-8321,-25371,10
221499,-32759,32742,593,13746,-995,-32764,10
221512,-32759,32742,1883,19764,1711,-32764,10
221525,-32760,32742,9012,29995,5050,-32764,10
221538,-29338,32742,15329,32525,6878,-32764,10
221551,-19210,32742,22509,32764,9056,-32764,10
221564,12219,32742,32134,32764,14323,-32764,10
221576,26929,32742,32764,32683,14311,-32764,10
221589,32284,32742,32764,31103,6685,-32764,10
221602,31155,32742,30724,14460,9688,-32764,10
221614,20811,32742,23240,13713,8757,-32764,10
221662,32711,32742,32764,21663,-12960,-32764,10
223147,-17522,7611,14682,849,-438,-6893,11
223160,-19949,8997,13749,490,-697,-10078,11
223173,-31479,15702,13709,223,-2715,-19730,11
223186,-32759,18274,12982,-600,-4439,-26820,11
223199,-32759,23051,10742,-1334,-5211,-32116,11
223212,-32759,32288,7034,537,-3749,-32764,11
223224,-32759,32742,5123,3166,-299,-32764,11
223237,-32759,32742,4166,7331,3104,-32764,11
223250,-32759,32742,10101,17606,7908,-32764,11
223263,-30778,32742,17799,21675,10061,-32764,11
223276,-25305,32742,27728,23054,10873,-32764,11
223288,-11460,32742,31219,16768,1802,-32764,11
223301,-1609,32742,32003,9710,-6389,-32764,11
223314,20980,32742,13688,-6147,-10537,-32764,11
223327,27156,32742,6317,-5146,-1577,-32764,11
223340,26785,32742,7230,1706,10883,-32764,11
223354,22380,29277,22083,10946,24264,-32764,11
223366,17730,30005,20213,8768,22652,-32764,11
223379,17349,30789,14814,7144,16404,-32764,11
223392,26335,32349,15597,10483,-4663,-32764,11
223405,30973,28252,15502,10009,-6575,-32764,11
223418,32711,18374,18779,10942,-891,-32764,11
223430,31795,17214,22118,10921,2489,-32173,11
223443,30122,16717,24001,9616,3972,-27678,11
223456,30016,16108,22964,5499,2264,-15659,11
225122,-8273,-5731,17500,10581,-10723,-5004,12
225135,-9536,-5543,17687,9011,-12644,-6458,12
225148,-5649,-5381,17897,6793,-15977,-7185,12
225161,-1201,-5857,18113,2736,-12933,-6354,12
225174,-1267,-4697,18645,1708,-10679,-4262,12
225187,-2632,-3862,17607,351,-8288,-2541,12
225199,-4256,-4756,13615,-457,-6368,-2217,12
225212,-3428,-5967,13655,543,-5878,-2523,12
225225,-1756,-5012,15773,2523,-3027,-2512,12
225238,-685,-4158,16285,2922,-1879,-1855,12
225251,-611,-4049,16147,2953,-583,-913,12
225263,-305,-4562,17897,3423,1189,1241,12
225276,10,-3685,19308,3170,1152,2475,12
225289,10,-2513,20468,2253,450,3962,12
225302,-2393,-1801,20523,-687,-495,6653,12
225314,-3992,-2108,20050,-1964,-637,7249,12
225327,-5074,-1987,19688,-2934,-567,7252,12
225340,-2978,-1373,17662,-4285,-443,7072,12
225353,-1036,-1088,16578,-4499,-866,8091,12
225366,-408,-1488,16096,-4474,-1296,9961,12
225378,-2440,-2147,15188,-4060,-1839,13153,12
225391,-2488,-2025,16597,-3542,-2012,14115,12
225404,-2691,1099,20145,-5192,-565,15789,12
225417,-2062,2360,20685,-7502,488,16424,12
225429,-3180,2503,19013,-10765,1511,17473,12
225443,-8042,170,16109,-15051,535,18182,12
225455,-6976,-436,14896,-15716,-922,17186,12
225468,-4460,-973,14170,-15632,-1453,16553,12
225481,-4548,-355,13836,-13840,417,17640,12
225494,-7846,-462,12765,-13227,1493,18096,12
225506,-10414,-532,11467,-12148,1359,17377,12
225519,-13506,-1241,8860,-9201,617,13502,12
225532,-14488,-1031,8386,-7130,52,11222,12
225545,-21926,921,9693,-3264,597,3432,12
225558,-21068,2975,9421,-1881,-41,-1082,12
225570,-24324,4750,8832,-629,-175,-4906,12
225583,-32759,9677,7479,2730,-900,-16051,12
225596,-32760,13560,8359,4890,-822,-25450,12
225609,-32760,18069,9443,6828,590,-32272,12
225622,-32759,31174,10690,11429,8942,-32764,12
225634,-32759,32742,12135,15485,13025,-32764,12
225647,-31603,32742,18613,20111,16561,-32764,12
225660,-16304,32742,28776,23966,22833,-32764,12
225673,-14142,32742,28275,23467,24300,-32764,12
225685,-9517,32742,26330,22454,23243,-32764,12
225698,60,32742,29902,19464,21879,-32764,12
225711,3560,32742,28740,16443,24818,-32764,12
225724,4066,32742,29827,15039,29928,-32764,12
226548,-11064,3254,15951,2095,-3520,6091,13
226561,-10193,3098,16456,2332,-2762,4472,13
226574,-8808,1329,15708,2366,-1989,2381,13
226587,-7677,1125,16951,2667,-2348,1849,13
226600,-6232,1106,19554,1731,-2719,1091,13
226613,-6537,1004,19314,263,-2708,1144,13
226625,-7369,201,17328,-1367,-2314,1307,13
226638,-8325,-1113,13950,-1285,-522,862,13
226651,-8189,-1077,14204,6,244,382,13
226664,-6854,-951,15628,1209,365,-214,13
226676,-5331,-224,16652,1159,845,-218,13
226689,-5812,-668,15699,700,1266,352,13
226702,-6736,-862,14969,645,1456,788,13
226715,-8173,-1098,14025,1446,1935,775,13
226727,-9013,-1057,14011,2097,2186,520,13
226740,-10257,-570,15035,2797,2340,-118,13
226753,-10044,280,15909,3088,1345,-2361,13
226765,-8528,967,16779,2422,401,-3357,13
226812,-12947,994,12348,868,-150,-8389,13
226825,-7043,2950,16243,2152,-293,-10865,13
226838,-6107,2599,16029,2308,-255,-11395,13
226851,-7931,2537,16738,2673,-51,-10600,13
226863,-12371,3523,17117,2880,-1968,-10955,13
226877,-14906,3782,18756,2754,-2342,-12054,13
226889,-15080,4940,18951,2304,-2114,-14182,13
226902,-13920,6839,17812,1485,-649,-18055,13
226915,-14223,6947,16608,1416,329,-19593,13
226928,-14831,6717,15545,1866,1312,-21093,13
226940,-13975,6972,15414,2945,4058,-25458,13
226953,-13406,6133,15706,2930,5220,-27626,13
226966,-11523,7320,16312,3281,4859,-29612,13
226979,-8840,8447,15985,3260,4739,-31626,13
226992,-9365,8933,16102,3621,5368,-32128,13
227004,-11232,10020,14979,4236,7822,-32764,13
227017,-12600,11168,14935,5092,8939,-32764,13
227030,-13627,12761,15326,6182,9700,-32764,13
227043,-15015,17019,17188,7924,10343,-32764,13
227056,-15309,19850,19291,8234,10917,-32764,13
227068,-15464,22826,21576,7768,12191,-32764,13
227081,-21847,27920,22850,5261,18023,-32764,13
227094,-22785,30219,23415,4909,20508,-32764,13
227107,-22563,32692,24438,5250,22926,-32764,13
227119,-13996,32742,27918,6968,26648,-32764,13
227133,-7445,32742,27440,7369,29473,-32764,13
227145,3114,32742,25088,8691,32263,-32764,13
227158,7169,32742,28385,16189,32764,-32764,13
227171,9622,32742,32140,18643,32764,-32764,13
227184,17982,32742,32764,14190,26849,-32764,13
227197,22072,30967,31770,8195,23915,-32764,13
227209,23533,26443,27313,5216,23077,-32764,13
