timestamp,ax,ay,az,gx,gy,gz,pressing_id
2216666,-2823,9182,17564,1498,-4441,1589,1
2216679,427,9092,15795,1217,-5654,980,1
2216692,805,9338,16430,1616,-5506,1493,1
2216759,412,1866,28253,6707,1171,4327,1
2216771,2216,4833,32764,6431,1143,6940,1
2216784,-29,9286,32764,2068,2547,9548,1
2216797,-4523,15434,32764,-4223,5835,12132,1
2216810,-21844,27768,32764,-17377,17250,12701,1
2216822,-28444,31162,32764,-23925,23924,8240,1
2216835,-30918,32695,32764,-29897,27428,830,1
2216848,-18923,32742,32764,-32764,18612,-16057,1
2216861,-8710,32742,32764,-32764,12165,-21924,1
2216874,1495,32742,32764,-32764,7336,-24824,1
2216886,16051,32742,31882,-32764,6520,-21379,1
2216900,15983,32742,25015,-32764,9990,-17139,1
2216912,15673,32432,16014,-32764,14068,-14199,1
2216925,13793,32742,15597,-32764,16329,-10267,1
2216938,9737,32742,19542,-32764,13626,-8840,1
2216951,6447,31630,-4130,-32764,4865,-3446,1
2216963,10146,26105,-14445,-32764,2263,-5009,1
2216976,5979,28735,-15714,-32764,4564,-4972,1
2216989,23194,-650,-17754,-32764,-3016,-6180,1
2217002,21708,12731,-20105,-32706,-554,4934,1
2217927,-6041,11576,22020,-4722,7721,4152,2
2217939,-530,9653,13391,-8404,4558,120,2
2217953,-333,8762,9967,-8212,3698,-836,2
2217965,957,7774,8099,-6711,1988,-1920,2
2217978,2955,6437,7838,-2159,-651,-3657,2
2217991,4109,6102,9320,-73,-1091,-4152,2
2218003,6189,6826,11404,1379,-2483,-3805,2
2218016,7031,7583,14573,1985,-2812,-1882,2
2218029,7230,7698,15406,1525,-3128,-665,2
2218042,6699,7860,15863,880,-3212,567,2
2218054,5882,8048,15821,-309,-1833,2675,2
2218067,4880,7926,16104,-501,-555,3652,2
2218080,2618,8050,17767,-820,1597,5125,2
2218093,1782,8192,18620,-1340,2238,5347,2
2218106,1613,7896,20016,-1795,2739,5341,2
2218118,419,7970,23940,-2623,5695,5662,2
2218131,-1707,7957,26691,-3097,8382,5868,2
2218144,-4237,8363,30483,-3613,10711,5800,2
2218157,-7840,10963,32764,-6765,12630,5087,2
2218169,-9516,13853,32764,-9990,12913,4739,2
2218182,-13036,17533,32764,-13759,14016,4260,2
2218195,-20510,23831,32764,-20152,18798,-1492,2
2218208,-19608,26300,32764,-23335,19732,-7124,2
2218221,-15113,28865,32764,-27611,19365,-13230,2
2218233,-5089,32738,32764,-32764,15814,-21777,2
2218246,-1893,32742,32764,-32764,12844,-24417,2
2218259,6378,31181,32764,-32764,7837,-27459,2
2218272,11806,27627,32764,-32764,8837,-27168,2
2218285,17271,25151,32708,-32764,12243,-25224,2
2218298,17524,22328,22520,-32764,22016,-16737,2
2218310,12028,21745,21721,-32764,22419,-13297,2
2218323,6750,22491,21607,-32764,20156,-12474,2
2218336,7714,25431,17410,-32764,13420,-15574,2
2218349,11450,26317,12597,-32764,11291,-16320,2
2218362,13694,26036,6915,-32764,10284,-15610,2
2218374,12007,23315,-2166,-32764,7151,-10862,2
2218387,9116,20247,-4009,-32764,4609,-8760,2
2218400,12084,14911,-6423,-32764,563,-5260,2
2218413,12588,12690,-6961,-32764,388,-1743,2
2218426,9483,11282,-7151,-32764,983,2411,2
2218439,2236,7039,-8201,-32754,3204,6892,2
2218451,784,5349,-8482,-31617,4427,7016,2
2218464,386,4080,-9113,-28636,5204,6640,2
2219379,3460,8929,17727,-776,-864,-1449,3
2219392,5101,8345,17483,-1904,683,-1731,3
2219405,3923,8316,17627,-2928,1213,-1516,3
2219417,4233,7465,17521,-4899,1330,-367,3
2219430,4848,7427,18763,-5152,453,499,3
2219443,5391,7975,21499,-5453,-1113,1837,3
2219456,4204,10804,32272,-6015,-5457,6314,3
2219468,2904,13139,32764,-6217,-3762,8458,3
2219481,1641,17667,32764,-6657,3273,10458,3
2219494,-2113,26808,32764,-15111,24312,10585,3
2219507,-1743,29392,32764,-23142,29464,7482,3
2219520,-1100,31521,32764,-30982,29662,3097,3
2219532,1060,30634,32764,-32764,23260,-7009,3
2219545,7605,31139,32764,-32764,19336,-12635,3
2219558,25277,31644,32764,-32764,16757,-16795,3
2219571,28923,28445,32764,-32764,18885,-14006,3
2219583,26722,26589,32764,-32764,20653,-9757,3
2219597,20799,27815,26050,-32764,22189,-5743,3
2219609,20253,29161,19777,-32764,22545,-5409,3
2219622,20456,31025,15609,-32764,21436,-4792,3
2219635,23792,30126,3822,-32764,18297,-1713,3
2219647,24604,26940,-2322,-32764,18267,1555,3
2219661,23071,23874,-5244,-32764,18367,5220,3
2219673,19951,21480,-3973,-32764,16210,11496,3
2219686,16128,20463,-4647,-32764,15630,14546,3
2219730,1558,11950,-9531,-31528,17976,15883,3
2219743,-492,9707,-11979,-28012,17512,14272,3
2219755,3534,5727,-12306,-23727,16497,12427,3
2219769,4363,5533,-10460,-14899,15545,11501,3
2219781,2702,5533,-9497,-12264,15574,12676,3
2219794,-3378,3963,-12063,-10233,14801,13453,3
2219807,-6805,2710,-14524,-9187,13455,12159,3
2219820,-7306,2043,-16106,-7515,11474,9932,3
2219833,-8046,2100,-18474,-3076,11025,6423,3
2220928,1614,9400,17247,-3301,-4623,-2128,4
2220940,1185,9272,17092,-4782,-4450,-1815,4
2220954,537,8110,15510,-7238,-3655,-813,4
2220966,241,7235,14878,-7264,-3674,-462,4
2220979,35,6482,15443,-6392,-4479,144,4
2220992,-1339,5256,19883,-3252,-2233,736,4
2221005,-3238,6196,24285,-1555,-684,893,4
2221017,-6649,9202,32764,-753,795,949,4
2221030,-9206,11652,32764,-2050,4959,2322,4
2221043,-11452,15711,32764,-6520,8168,2745,4
2221055,-17815,24162,32764,-21050,14828,1538,4
2221069,-20693,26833,32764,-27214,17096,-1383,4
2221081,-20462,28382,32764,-31565,18245,-6059,4
2221094,-9431,29943,32764,-32764,17264,-15791,4
2221107,-1884,32742,32764,-32764,15835,-18549,4
2221120,3822,32742,32764,-32764,14587,-18693,4
2221133,8766,32742,32764,-32764,16662,-16350,4
2221145,10704,31330,32764,-32764,19966,-15546,4
2221158,12515,28831,31300,-32764,22208,-14984,4
2221171,12668,24307,22916,-32764,22589,-13260,4
2221184,10036,24141,22968,-32764,19707,-12442,4
2221196,7753,28976,21412,-32764,6374,-15020,4
2221209,11878,30517,16677,-32764,3870,-16238,4
2221222,12603,31526,8541,-32764,4420,-15209,4
2221235,14045,26867,-3688,-32764,3406,-11889,4
2221248,14193,24054,-7964,-32764,2781,-8869,4
2221260,12549,20749,-10383,-32764,2652,-5420,4
2221273,9915,16940,-10958,-32764,2992,20,4
2221286,10572,15859,-12619,-32764,3087,2808,4
2221299,9161,14283,-14132,-32764,3834,6329,4
2221312,859,8004,-19279,-32726,6548,12332,4
2221324,-3854,4387,-19934,-30057,7597,12191,4
2221337,-7057,2844,-19530,-23330,7853,10238,4
2221350,-5873,2528,-18274,-10083,7878,3593,4
2221363,-5691,1103,-19032,-5107,8697,1550,4
2222027,-747,15773,23761,-8314,3195,-4049,5
2222040,-348,17125,27196,-10883,2521,-3394,5
2222053,-1793,18078,32764,-14301,1800,-2556,5
2222065,-5817,19891,32764,-24712,-175,-604,5
2222078,-5722,21638,32764,-30368,-1296,-1261,5
2222091,4996,31793,32764,-32764,-7341,-1382,5
2222105,8575,32742,32764,-32764,-8509,1467,5
2222118,5996,32742,32764,-32764,-8453,5621,5
2222131,-582,32742,32764,-32764,-8879,7851,5
2222144,1115,32742,30001,-32764,-9980,6426,5
2222156,7668,32742,8398,-32764,-10803,4512,5
2222169,9501,31855,-91,-32764,-12356,7350,5
2222182,7099,27938,-7720,-32764,-9937,11671,5
2222195,-3137,21440,-18936,-32764,-689,16616,5
2222207,-6154,18321,-20286,-32764,1885,15807,5
2222220,-8423,15142,-20950,-32764,4146,13422,5
2222233,-2339,5615,-22361,-32764,3722,7415,5
2222246,2874,1475,-22043,-32693,3379,6625,5
2222259,5398,-1645,-20521,-28916,3747,7710,5
2222271,493,-3956,-13543,-12894,5718,11199,5
2222284,-3591,-4160,-10218,-7979,6202,11420,5
2222297,-6311,-4698,-7063,-5390,6379,9885,5
2222310,-4363,-5584,-4292,-4429,5290,4947,5
2222323,-3136,-5752,-4948,-4944,4951,3488,5
2222336,-4934,-7666,-8528,-4990,5975,1883,5
2222348,-5872,-7814,-9984,-3874,6904,653,5
2223273,-449,17606,23521,141,-1159,9666,6
2223286,584,13249,24267,-2553,646,8300,6
2223299,3577,12211,26357,-4441,4208,5790,6
2223312,6829,12333,29166,-4477,6196,6359,6
2223324,7585,17621,32764,-6081,8938,10589,6
2223337,4677,22196,32764,-8628,8120,13194,6
2223350,-687,26387,32764,-12860,6489,14447,6
2223363,-6688,31997,32764,-27720,6038,10851,6
2223375,-3031,32742,32764,-32562,9890,6889,6
2223388,3712,32742,32764,-32764,14192,3631,6
2223401,18221,32742,32764,-32764,17486,874,6
2223414,22808,32742,32764,-32764,16458,1436,6
2223427,21979,32742,32764,-32764,15447,2696,6
2223440,18613,32742,32764,-32764,14716,1771,6
2223452,20358,32742,32764,-32764,15213,125,6
2223465,28825,32742,23363,-32764,17430,-220,6
2223478,31242,32742,20425,-32764,17787,2166,6
2223491,30327,32742,17903,-32764,17746,5911,6
2223504,23632,32515,6166,-32764,20665,12511,6
2223516,18971,30985,1182,-32764,22016,14257,6
2223562,15493,20557,-2021,-32764,10175,14562,6
2223575,13567,17805,-4934,-32764,10607,17502,6
2223587,6042,11969,-7404,-32764,11913,20783,6
2223600,1703,11208,-6454,-31926,11947,20810,6
2223613,-1198,10015,-6339,-28312,11654,19784,6
2223626,-2639,9157,-6872,-22498,9881,15858,6
2223639,-3201,8172,-7455,-20795,9046,13892,6
2223651,-3762,7496,-5873,-19251,7859,12202,6
2223664,-1374,5391,-8895,-17483,4931,10382,6
2223677,-1738,5953,-10988,-16571,4746,10720,6
2223690,-3737,5995,-14244,-15794,4962,11304,6
2223703,-9868,5241,-21133,-11366,6015,10684,6
2223716,-11627,4744,-23159,-7607,6247,9043,6
2223728,-12687,4423,-25031,-3217,6087,6829,6
2224764,2665,11126,19853,1626,-483,4695,7
2224776,727,10397,23447,-1133,575,5569,7
2224789,307,10225,24541,-2928,828,6094,7
2224802,-1304,11279,25273,-5418,4111,6425,7
2224815,-2603,11911,26546,-5679,6197,6238,7
2224827,-3365,14128,29696,-6158,5946,6311,7
2224840,-6794,19712,32764,-10018,4583,5483,7
2224853,-7833,21743,32764,-14467,5062,3939,7
2224866,-7823,23437,32764,-19601,6980,1664,7
2224879,-3802,28697,32764,-28963,6630,-2326,7
2224891,1215,31950,32764,-32483,3447,-3437,7
2224904,3859,32742,32764,-32764,328,-3091,7
2224917,3724,32742,32764,-32764,177,-2272,7
2224930,7748,32742,32764,-32764,511,-3146,7
2224942,12370,32742,32764,-32764,56,-2859,7
2224955,19053,32742,32668,-32764,-2156,1257,7
2224968,20245,32742,28203,-32764,-3562,4790,7
2224981,17371,32742,11818,-32764,-3484,12549,7
2224994,14074,32742,6074,-32764,-3993,15772,7
2225067,1362,15006,-13468,-32764,-3588,20589,8
2225080,-1369,11813,-14621,-32764,-1974,20482,8
2225092,-2960,9086,-14969,-32764,-596,19419,8
2225105,-4496,5644,-11634,-30789,389,15642,8
2225118,-3712,5769,-8753,-26224,369,13927,8
2225872,-7176,17354,32764,-14930,-2150,4331,9
2225885,-12932,22100,32764,-30588,-8874,3414,9
2225898,-12165,25858,32764,-32761,-13249,1686,9
2225911,-7708,29117,32764,-32764,-17019,427,9
2225923,4391,32742,32764,-32764,-20636,3453,9
2225937,5242,32742,32764,-32764,-19536,8046,9
2225949,1475,32742,32764,-32764,-17897,12282,9
2225962,-5903,32742,21338,-32764,-12964,14268,9
2225975,-7357,32742,11924,-32764,-10409,12728,9
2225988,-7023,32742,3135,-32764,-8293,10317,9
2226001,-4740,32742,-10705,-32764,-10319,7897,9
2226013,-6282,32384,-15384,-32764,-15171,8342,9
2226026,-4876,22712,-23031,-32764,-20303,9775,9
2226039,-1342,17572,-26382,-32764,-17473,11895,9
2226052,-4101,13580,-29343,-32764,-8590,14548,9
2226065,-9613,7850,-32742,-32764,2503,14608,9
2226078,-8228,1401,-32742,-31900,2074,13284,9
2226090,-8305,-6585,-32418,-22796,3850,11082,9
2226955,-10834,28634,32764,-16082,6092,8073,10
2226968,-12806,29433,32764,-27739,6723,1673,10
2226980,-10698,29348,32764,-30185,7856,-1744,10
2226994,-8161,29354,32764,-31521,9293,-4147,10
2227006,-4300,32742,32764,-32756,9100,-6054,10
2227019,-4320,32742,32764,-32764,6637,-6265,10
2227032,-3954,32742,32764,-32764,3440,-6847,10
2227045,1840,32742,32764,-32764,-2181,-8143,10
2227058,8705,32742,32764,-32764,-3769,-7698,10
2227070,13286,32742,32764,-32764,-4479,-5275,10
2227083,14269,32742,27740,-32764,-3358,2065,10
2227096,13431,32742,19219,-32764,-2986,4689,10
2227109,10987,32742,7880,-32764,-4981,8724,10
2227121,9690,32742,2047,-32764,-4953,10240,10
2227134,10049,32742,-3538,-32764,-3719,11393,10
2227147,7483,31664,-13824,-32764,-501,14436,10
2227160,4593,27518,-15918,-32764,-2398,16371,10
2227173,2409,22039,-15792,-32764,-5144,17548,10
2227185,2908,13493,-15152,-32764,-4618,18293,10
2227198,3016,10038,-16526,-32764,-211,19047,10
2227211,109,6920,-16784,-32642,4565,19629,10
2227224,-3731,4529,-11765,-22222,6178,17077,10
2227237,-2333,4869,-10491,-18193,5965,15220,10
2227249,-3322,4127,-10997,-16040,6424,14554,10
2227262,-6266,2277,-10061,-12698,7119,13855,10
2227275,-7584,1952,-7890,-11366,5492,12027,10
2227288,-5208,1824,-10923,-12253,3807,8181,10
2227301,-5122,1591,-13327,-12179,4214,7646,10
