timestamp,ax,ay,az,gx,gy,gz,pressing_id
1614993,-6948,-14884,-4371,803,638,640,1
1615006,-6827,-14587,-3198,1039,265,-517,1
1615019,-6254,-14132,-2241,411,248,-921,1
1615079,-4402,-14139,-3615,-3275,384,86,1
1615091,-5909,-13949,-5573,-4429,-324,548,1
1615104,-6438,-14560,-7261,-4703,-1120,386,1
1615117,-6725,-15022,-8331,-3710,-2005,201,1
1615130,-5757,-15410,-6911,-1023,-1870,-137,1
1615143,-5727,-15392,-6824,-141,-822,21,1
1615156,-5701,-15321,-6414,904,289,124,1
1615168,-5929,-14279,-4899,2158,1247,-31,1
1615181,-5663,-13578,-5036,2054,864,-311,1
1615194,-5396,-12349,-5515,1841,-66,-679,1
1615206,-3999,-10485,-9181,1234,-3677,-1329,1
1615220,-2575,-9635,-11582,1640,-5474,-1352,1
1615232,990,-5453,-17332,5373,-4781,-710,1
1615245,-113,-1811,-20604,8677,-3453,-135,1
1615258,-1114,2424,-23194,12439,-4238,-472,1
1615271,2980,9528,-21679,20587,-11059,-2911,1
1615283,5763,11820,-21726,23198,-13283,-3788,1
1615296,7044,13400,-22602,25917,-13852,-4247,1
1615309,5091,16530,-23892,32391,-14528,-6152,1
1615322,7675,17472,-23509,32764,-15820,-7884,1
1615335,12486,19143,-21536,32764,-16535,-8740,1
1615347,18150,23698,-18029,32764,-17572,-6463,1
1615360,20406,25716,-16212,32764,-18899,-4442,1
1615373,15500,29830,-11025,32764,-19691,-2058,1
1615386,12893,31548,-7523,32764,-20148,-1251,1
1615399,11429,32742,-4026,32764,-20522,-2631,1
1615412,23344,32742,5229,32764,-24575,-5505,1
1615424,29879,32742,12312,32764,-24051,-3784,1
1615437,25674,32742,19415,32764,-21147,1235,1
1615450,11057,32742,32764,32764,-20582,7584,1
1616645,-6990,-11481,-7234,241,-354,-10,2
1616658,-6383,-11684,-8102,-269,-541,355,2
1616671,-6698,-11556,-8342,-615,-520,1090,2
1616684,-8090,-11251,-8946,-570,216,1811,2
1616697,-9018,-11071,-9344,-496,441,1761,2
1616709,-9642,-10635,-10091,-287,713,1468,2
1616722,-9524,-8902,-11734,1022,798,247,2
1616735,-8290,-7127,-13572,1833,373,-229,2
1616748,-5383,-1853,-19109,2910,-264,-435,2
1616760,-5107,2199,-21551,7196,-1191,-242,2
1616773,-6053,5858,-23859,10059,-2349,-165,2
1616786,-7167,10102,-26464,16966,-4354,-2511,2
1616799,-6369,11961,-27814,20798,-4904,-4561,2
1616812,-4356,13441,-29358,25182,-5773,-6603,2
1616824,244,17149,-26290,32695,-7896,-9490,2
1616837,3075,18840,-23138,32764,-8692,-10250,2
1616850,5306,20447,-20791,32764,-9315,-10431,2
1616863,7553,22834,-19175,32764,-13677,-10336,2
1616876,8637,24296,-17562,32764,-17404,-10919,2
1616889,10120,25791,-15139,32764,-20597,-12134,2
1616901,17316,27530,-11466,32764,-24033,-15603,2
1616914,25852,28816,-7522,32764,-25531,-16163,2
1616927,32062,29636,-2822,32764,-24713,-11751,2
1616940,32189,31068,2078,32764,-23956,-8805,2
1616953,29467,32702,9506,32764,-23325,-5950,2
1616965,24906,32742,27785,32764,-23125,-4625,2
1616978,30140,32742,32630,32764,-24513,-4549,2
1616991,32422,32742,26194,32764,-23984,-1826,2
1617004,32711,32742,16986,32764,-22310,8890,2
1617017,31005,32742,28066,32764,-21312,16271,2
1617029,19692,32742,32764,32764,-23697,20279,2
1617043,7082,32742,32764,32764,-32403,11947,2
1617055,13070,32742,32764,32764,-32764,4496,2
1617068,23319,32742,32764,32764,-32764,-438,2
1617081,30126,32742,32764,27254,-32764,-493,2
1617094,32588,32399,32764,24605,-32764,-515,2
1617106,32702,23972,32764,29060,-32192,18,2
1617119,31164,22270,32764,31980,-24430,835,2
1617132,27157,23378,32764,32760,-12321,3135,2
1617144,8716,23459,32764,30709,789,11198,2
1617158,-5132,20221,32764,23917,1866,12492,2
1617170,-11529,17702,32764,16525,345,9244,2
1617183,-4994,11532,32764,5223,-4636,-1153,2
1617196,2073,8396,31208,2355,-4875,-4480,2
1617209,7535,5256,27090,1790,-2740,-5745,2
1617221,15080,3188,27917,4761,2107,-3340,2
1617234,14774,2677,28790,4627,3529,-739,2
1617247,12430,4280,30599,2784,5763,3815,2
1617259,10125,5590,29933,1741,8368,5542,2
1618345,-6048,-10941,-10420,421,-1195,1494,3
1618358,-6674,-11038,-9479,65,-1373,1384,3
1618370,-6838,-10864,-9723,-1159,-1996,1501,3
1618383,-6530,-10863,-9765,-1528,-2124,1212,3
1618396,-4496,-11048,-9431,-2158,-2433,1548,3
1618409,-4152,-10705,-10481,-2847,-2402,2252,3
1618422,-5075,-10636,-12200,-3204,-2247,2914,3
1618434,-4749,-9166,-15898,-2245,-2495,3333,3
1618478,-4520,-488,-29912,3055,-3795,3700,3
1618490,-2613,6319,-32742,8220,-8056,2858,3
1618503,-1927,9937,-32742,11821,-9852,2150,3
1618516,-1931,14252,-32742,16603,-11868,927,3
1618529,524,22636,-32742,29877,-17780,-4121,3
1618541,3087,26234,-32742,32716,-20343,-7302,3
1618554,7631,28884,-32742,32764,-22193,-10273,3
1618567,21665,32742,-29034,32764,-24493,-13390,3
1618580,25717,32742,-23568,32764,-25004,-12440,3
1618593,27933,32742,-19764,32764,-25665,-10701,3
1618605,29035,32742,-10761,32764,-26725,-7224,3
1618618,30253,32742,-6052,32764,-27526,-6190,3
1618631,30661,32742,5278,32764,-29035,-5256,3
1618644,32711,32742,15839,32764,-31501,-4727,3
1618657,32711,32742,26811,32764,-31965,-717,3
1618669,32589,32742,28228,32764,-32716,7929,3
1618682,30782,32742,25356,32764,-32764,9162,3
1618695,27560,32742,24242,32764,-32764,8661,3
1618708,30208,32742,30219,32764,-30820,5066,3
1618721,32711,32742,32764,32764,-30147,3770,3
1618733,32711,32742,32764,32764,-29646,5502,3
1618746,17545,32742,32764,32733,-32615,16494,3
1618759,7643,32742,32764,30089,-32764,14086,3
1618772,8011,30519,32764,24354,-32764,7293,3
1618784,14903,25822,32764,17967,-32764,-7034,3
1618797,24825,22207,32764,20027,-32764,-10630,3
1618810,32640,17389,32764,27101,-28805,-4211,3
1618823,25546,15818,32764,24805,-24011,2932,3
1618836,15133,13607,32764,20717,-20365,6660,3
1618848,4224,11066,32764,17649,-11903,5231,3
1618862,1102,8524,32764,16819,-8131,3574,3
1618874,-1054,6656,32764,17987,-5350,1585,3
1618887,2756,5718,32764,18650,-2985,-3257,3
1618900,6967,4620,32764,15655,-2931,-4536,3
1618913,10323,2785,32764,10737,-2848,-4225,3
1618925,10135,-683,32764,3891,875,-812,3
1619710,-6755,6107,-27942,17308,-1755,1536,4
1619723,-9414,12813,-32715,20714,-2940,1163,4
1619735,-11234,16846,-32742,28311,-8919,-366,4
1619748,-10948,20125,-32742,31854,-12317,-3753,4
1619761,-3930,28472,-32742,32764,-17910,-12449,4
1619774,891,32169,-32742,32764,-19940,-16342,4
1619787,6358,32742,-32742,32764,-22546,-19877,4
1619799,25879,32742,-31567,32764,-28157,-24522,4
1619812,32685,32742,-26040,32764,-29138,-23756,4
1619825,32711,32742,-23154,32764,-28517,-20026,4
1619838,32711,32742,-14101,32764,-28894,-8179,4
1619851,32711,32742,-6446,32764,-32095,-3720,4
1619863,32684,32742,-202,32764,-32610,-598,4
1619876,32139,32742,6261,32764,-32698,-1004,4
1619889,32711,32742,11668,32764,-32664,-1249,4
1619903,32711,32742,5441,32764,-18168,10133,4
1619916,32711,32742,4716,32764,-9072,19797,4
1619929,32711,32742,18744,32764,-9889,27481,4
1619941,30566,32742,32764,32764,-27425,32764,4
1619954,18967,32742,32764,32764,-31627,32106,4
1619967,18615,32742,32764,32764,-32753,27163,4
1619980,29119,32742,32764,20564,-32764,21912,4
1619993,20421,32742,32764,3649,-32764,23158,4
1620005,15488,31309,32764,-9496,-32764,13339,4
1620018,23043,24830,29131,-5428,-32764,7049,4
1620031,27697,25143,23833,3207,-32280,4844,4
1620044,15542,28241,19549,24978,-10129,7410,4
1620056,6182,31018,28451,32006,-3352,8544,4
1620069,-3902,28709,32764,32508,-1630,8114,4
1620082,-4052,22801,32764,22026,-5705,982,4
1620095,-1808,19243,32764,14740,-6344,-2190,4
1620108,1285,17347,32764,9830,-5628,-4717,4
1620120,9232,15347,32764,5612,-294,-6415,4
1620133,10613,14830,32764,4828,2632,-4745,4
1621118,-4199,-807,-15165,578,1711,114,5
1621131,1043,2848,-21797,2557,404,378,5
1621144,7423,10108,-32742,5954,-2698,1737,5
1621157,8457,29368,-32742,18073,-12566,5463,5
1621169,5891,32742,-32742,27371,-18211,4060,5
1621182,12147,32742,-32742,32764,-25372,-5795,5
1621195,20199,32742,-32742,32764,-28420,-10904,5
1621208,28805,32742,-32742,32764,-30703,-14801,5
1621221,32711,32742,-27104,32764,-32764,-17882,5
1621233,32711,32742,-22551,32764,-32764,-16381,5
1621246,32711,32742,-17477,32764,-32764,-13648,5
1621259,32711,32742,-5387,32764,-32764,-3182,5
1621272,32711,32742,-803,32764,-32764,-580,5
1621285,32711,32742,7179,32764,-32764,-3210,5
1621297,32711,32742,32764,32764,-30543,-5141,5
1621310,32711,32742,32764,32764,-16649,7418,5
1621323,32455,32742,32764,32764,-7497,25330,5
1621336,23669,32742,32764,32764,-30781,32764,5
1621348,30134,32742,32764,32764,-32764,30567,5
1621391,31030,32742,32764,32764,-30939,19941,5
1621404,12126,32742,32764,31092,-22419,22307,5
1621417,-10670,32386,32764,23324,-13976,19777,5
1621430,-18573,25496,32764,12226,1109,12944,5
1621443,-22698,16906,32764,14075,4710,7830,5
1621456,-5602,14812,32764,20320,6503,-4612,5
1621468,5000,16546,32764,17785,9085,-5620,5
1621481,10971,17725,32764,10344,12338,-3791,5
1622336,-7022,-8344,-10346,-3630,76,1145,6
1622348,-6320,-8796,-10193,-3907,-14,1347,6
1622361,-5608,-8721,-10575,-3949,13,2686,6
1622374,-6038,-8087,-11127,-3683,526,3470,6
1622387,-7419,-7738,-12383,-3059,1257,3785,6
1622399,-9495,-6767,-13191,-1413,1518,2626,6
1622412,-9100,-6072,-13512,-407,921,1731,6
1622425,-4471,-2777,-16114,1455,-1919,565,6
1622438,-1414,256,-17766,2712,-3517,769,6
1622451,1666,4034,-20089,4238,-4484,1385,6
1622464,2881,14120,-28862,7772,-6109,4139,6
1622476,302,19131,-32702,11145,-8026,4933,6
1622489,-2516,23889,-32742,16742,-10288,4062,6
1622502,-2998,32742,-32742,32095,-13942,-2177,6
1622515,1978,32742,-32742,32764,-16153,-6358,6
1622528,9556,32742,-32742,32764,-18196,-9957,6
1622540,25543,32742,-32742,32764,-23224,-13909,6
1622553,32263,32742,-32741,32764,-28704,-14793,6
1622566,32711,32742,-24305,32764,-32764,-14062,6
1622579,32711,32742,-19777,32764,-32764,-11665,6
1622592,32711,32742,-13484,32764,-32764,-9398,6
1622604,32711,32742,13197,32764,-32764,-6786,6
1622617,32711,32742,23643,32764,-32764,-6855,6
1622630,32711,32742,32046,32764,-32764,-6844,6
1622643,32711,32742,15652,32764,-27697,3156,6
1622656,32711,32742,7683,32764,-24599,5961,6
1622668,32711,32742,21330,32764,-26284,6887,6
1622681,32711,32742,32764,32764,-32764,24030,6
1622694,32711,32742,32764,32764,-32764,32484,6
1622707,32711,32742,32764,32764,-32764,32764,6
1622719,29288,32742,32764,32373,-32764,22671,6
1622732,32711,32742,32764,20117,-32764,11887,6
1622745,22275,32742,32764,2214,-13795,16958,6
1622758,-7310,29637,26746,10868,6036,22568,6
1622771,-31358,26723,27666,22700,16342,22738,6
1623715,-6979,-6620,-14843,-3779,-3127,-329,7
1623729,-5322,-6969,-14066,-2940,-3592,-464,7
1623741,-5317,-6584,-13034,-2713,-3489,50,7
1623754,-4941,-7555,-14250,-2851,-1866,1478,7
1623767,-5840,-7302,-14517,-2389,-1150,2458,7
1623779,-6877,-7028,-14687,-1824,-836,3012,7
1623792,-8063,-6555,-14115,-1194,-252,3144,7
1623805,-8012,-6105,-13942,-894,273,2861,7
1623818,-7642,-5762,-13466,-569,496,2587,7
1623830,-7698,-5188,-13683,-460,541,2346,7
1623843,-7419,-4829,-14687,-413,355,2214,7
1623856,-5854,-3266,-17716,596,-929,2546,7
1623869,-5265,-1949,-19885,1682,-1583,3091,7
1623882,-5305,-676,-21506,3594,-1597,3485,7
1623894,-6137,2455,-25117,8903,48,3327,7
1623907,-5018,4829,-27373,12393,97,2707,7
1623920,-3405,7055,-28724,16194,-996,2467,7
1623933,-689,12022,-32145,24309,-2904,2867,7
1623945,-1481,15245,-32742,29002,-2939,3284,7
1623958,-2211,18800,-32742,32448,-3556,2959,7
1623971,-572,27968,-32742,32764,-7359,472,7
1623984,2468,32500,-32742,32764,-10122,-1649,7
1623997,6295,32742,-27704,32764,-13321,-3673,7
1624009,18108,32742,-23702,32764,-20174,-6324,7
1624022,24253,32742,-19952,32764,-22877,-6259,7
1624035,32711,32742,-7026,32764,-28802,-3001,7
1624048,32711,32742,-1578,32764,-31888,-643,7
1624061,32054,32742,3950,32764,-32764,450,7
1624073,32711,32742,20988,32764,-32764,-2381,7
1624086,32711,32742,27433,32764,-32764,-2902,7
1624099,32711,32742,28787,32764,-32764,-603,7
1624112,32711,32742,25326,32764,-32764,7358,7
1624125,29302,32742,24841,32764,-31980,8639,7
1624138,24233,32742,24988,32764,-30205,8485,7
1624150,27881,32742,31926,32764,-30675,4174,7
1624163,32711,32742,32764,32764,-32600,4457,7
1624176,31840,32742,31890,32764,-32764,19991,7
1624188,26715,32742,29429,32764,-32764,21250,7
1624202,24623,32742,32764,32764,-32727,19091,7
1624214,13697,32742,32764,32764,-27918,12231,7
1624227,14409,32742,32764,32764,-29655,6549,7
1624240,20883,32742,32764,32764,-32412,817,7
1624253,32711,32742,32764,32147,-32764,2520,7
1624266,32698,32742,32764,26457,-32764,10029,7
1624278,29407,31774,32764,23496,-32764,14946,7
1624291,9214,31506,32764,32324,-19748,19541,7
1626063,-1519,-4359,-25068,7033,5941,8136,8
1626075,-1147,-5061,-27506,9285,4996,8604,8
1626088,-1661,-3787,-28466,18159,5672,9123,8
1626101,-662,-2500,-25952,22953,7157,9128,8
1626114,819,-1118,-23184,26758,8743,9757,8
1626126,1079,1331,-21086,30266,9929,12634,8
1626139,141,2407,-21264,31106,8378,14109,8
1626152,-460,4193,-21959,31996,5302,15115,8
1626165,-214,7045,-22730,32764,-1968,15260,8
1626178,753,8904,-22361,32764,-5283,14875,8
1626190,1303,12582,-17521,32764,-8104,14382,8
1626203,2912,14293,-15435,32764,-10762,12803,8
1626216,2910,15772,-14452,32764,-11224,11971,8
1626229,3086,17975,-14221,32764,-13133,9514,8
1626242,5002,19845,-13056,32764,-14387,8304,8
1626254,6182,22106,-11343,32764,-14781,7506,8
1626267,9504,26386,-7549,32764,-14968,7100,8
1626280,8955,28904,-5104,32764,-15583,7946,8
1626293,8447,31076,-2532,32764,-17443,8315,8
1626305,7517,32742,3816,32764,-22519,8053,8
1626318,5881,32742,3282,32764,-23956,7021,8
1626331,3935,32742,1955,32764,-24863,5018,8
1626344,4413,32742,4023,32764,-27030,-978,8
1626358,7811,32742,8143,32764,-26413,-3757,8
1626371,9065,32742,12677,32764,-17186,-4606,8
1626383,8239,32742,16449,32764,-16671,-2884,8
1626396,6492,32742,27301,32764,-21128,-844,8
1626409,8235,32742,32764,32764,-28686,1111,8
1626422,7436,32742,32764,32764,-27919,1748,8
1626435,5766,32742,32764,32764,-25560,1130,8
1626447,6105,32742,32764,32764,-23813,-4239,8
1626461,11734,32742,32764,32764,-25978,-7755,8
1626473,24859,32742,32764,32764,-27317,-8297,8
1626486,26919,32742,32764,32764,-25020,-4416,8
1626499,24507,32742,32764,32764,-21715,732,8
1626511,17919,32742,32764,29079,-14787,7497,8
1626524,13356,31657,32764,23090,-9506,8844,8
1626537,10322,27549,32764,16879,-4770,9428,8
1626550,4560,23277,32764,11226,3017,8189,8
1626562,4073,23381,32764,9618,4370,6360,8
1626575,4437,22509,32764,7634,4100,4341,8
1626588,7034,20399,32593,1221,2434,1138,8
1626601,8352,19191,30893,-2272,2671,250,8
1626614,9059,17998,28900,-4972,3576,-176,8
1627599,-12908,1855,-25691,19415,9002,4095,9
1627611,-14296,5338,-27410,24791,10209,3691,9
1627624,-11276,12422,-28426,32708,10414,2710,9
1627637,-11981,15634,-31102,32764,11860,2715,9
1627650,-14018,22587,-32700,32764,11472,2298,9
1627663,-12953,27110,-30203,32764,5963,-987,9
1627675,-10916,31048,-27919,32764,4345,-3823,9
1627689,-3928,32742,-26612,32764,2149,-9903,9
1627701,4145,32742,-24971,32764,-527,-11803,9
1627714,12020,32742,-22574,32764,-3207,-11800,9
1627727,18462,32742,-18261,32764,-6522,-7195,9
1627739,16729,32742,-15407,32764,-7907,-4425,9
1627752,14769,32742,-12921,32764,-9781,-3168,9
1627765,13886,32742,-2629,32764,-11695,-4496,9
1627778,14114,32742,6995,32764,-15145,-5217,9
1627790,10189,32742,11818,32764,-19723,-5583,9
1627804,14740,32742,8744,32764,-25520,-10584,9
1627816,20114,32742,5084,32764,-19986,-12062,9
1627829,28332,32742,9919,32764,2981,-7408,9
1627842,24401,32742,24695,32764,9927,647,9
1627854,13207,32742,32764,32764,4829,9413,9
1627868,5407,32742,32764,32764,-30128,11931,9
1627880,15824,32742,32764,32764,-32764,6764,9
1627893,25040,32742,32764,32764,-32764,2406,9
1627906,28102,32742,32764,32764,-27534,1083,9
1627919,27564,32742,32764,32764,-23222,3424,9
1627931,23239,32742,32764,32764,-23160,7272,9
1627944,19961,32742,32764,31318,-31094,11377,9
1627957,17567,32742,32764,27770,-29072,12348,9
1627970,5042,31653,32764,28896,-12486,11065,9
1627983,1628,29360,32764,29526,-3619,7803,9
1627995,-937,26594,32764,25739,1759,5159,9
1628008,-118,21961,32764,12766,4187,-506,9
1628021,3069,19265,32764,5418,4349,-2980,9
1628034,7682,15926,32764,-803,5003,-4615,9
1628047,12815,12081,29265,-6491,7700,-3591,9
1628059,13023,11614,26351,-6808,8336,-1595,9
1628072,11583,12203,26144,-6734,8785,811,9
1628957,-1232,2352,-30107,25391,8092,9048,10
1628970,-4196,10360,-31703,32758,13793,13083,10
1628982,-6506,15654,-32260,32764,15033,14529,10
1628995,-7409,20064,-32291,32764,15126,14693,10
1629008,-8799,25468,-29834,32764,12299,13071,10
1629021,-6972,27964,-29645,32764,9341,11337,10
1629034,686,32116,-25732,32764,1694,8637,10
1629046,4144,32742,-23017,32764,-951,8450,10
1629091,7222,32742,-10974,32764,-7241,7361,10
1629104,8005,32742,-6124,32764,-7382,6564,10
1629116,7771,32742,-1157,32764,-8572,6172,10
1629129,9105,32742,3357,32764,-13600,4826,10
1629142,12011,32742,8612,32764,-16101,4566,10
1629155,15197,32742,13299,32764,-16823,5581,10
1629168,14446,32742,11876,32764,-13570,12527,10
1629180,7754,32742,12261,32764,-8528,15465,10
1629193,1256,32742,13189,32764,-2568,15888,10
1629206,-7720,32742,31032,32764,1126,12272,10
1629219,2350,32742,32764,32764,-7238,9733,10
1629232,14277,32742,32764,32764,-29092,17376,10
1629244,9799,32742,32764,32764,-32735,22933,10
1629257,4866,32742,32764,32764,-32764,24403,10
1629270,2760,32742,32764,32764,-32764,13695,10
1629283,7022,32742,32764,32764,-32764,5608,10
1629295,13799,32742,32764,32747,-31513,-471,10
1629308,19522,32741,32764,27427,-7788,3237,10
1629321,11210,31848,32764,24362,2496,9217,10
1629334,2047,30327,32764,22100,6531,12979,10
1629347,-7540,28528,32764,15302,740,12773,10
1629359,-6972,24866,32381,11212,-3145,10163,10
1629373,-7055,20520,30832,8808,-4009,6956,10
1629385,-3286,18560,32321,7797,-808,-2000,10
1629398,516,16553,32764,6591,1305,-4870,10
1629411,6963,13401,30798,1290,2172,-4906,10
1629423,6521,12726,28196,-1887,1718,-2307,10
1629436,4433,12743,24646,-4969,561,544,10
